{
  "resourceType": "Bundle",
  "type": "document", 
  "timestamp": "2026-01-15T11:00:00+07:00", 
  "entry": [
    {
      "fullUrl": "urn:uuid:rujukan-comp-susi", 
      "resource": {
        "resourceType": "Composition",
        "status": "final", 
        "type": {
          "coding": [
            {
              "system": "http://loinc.org",
              "code": "18761-7",
              "display": "Referral Summary Note"
            }
          ]
        },
        "subject": { "reference": "Patient/51665620" }, 
        "date": "2026-01-15T11:00:00+07:00",
        "author": [
          { "reference": "Practitioner/51664917", "display": "Bidan Rina, S.ST" }
        ],
        "title": "Surat Rujukan Antenatal Care (ANC) Anemia Berat",
        "custodian": { 
            "reference": "Organization/51664973", 
            "display": "Klinik Pratama Sejahtera" 
        },
        "section": [
          { 
            "title": "Diagnosis dan Indikasi Rujukan",
            "entry": [
              { "reference": "Condition/51665624" } 
            ]
          },
          { 
            "title": "Data Laboratorium Kritis",
            "entry": [
              { "reference": "Observation/51665622" } 
            ]
          }
        ]
      }
    },
    { "fullUrl": "Patient/51665620", "resource": { "resourceType": "Patient", "id": "51665620", "name": [ { "text": "Susi Lestari" } ], "gender": "female", "birthDate": "1995-09-05", "identifier": [ { "system": "http://satusehat.id/nik", "value": "3374998877661122" } ] } },
    { "fullUrl": "Encounter/51665621", "resource": { "resourceType": "Encounter", "id": "51665621", "status": "finished", "class": { "code": "AMB", "display": "Ambulatory" }, "subject": { "reference": "Patient/51665620" }, "period": { "start": "2026-01-15T09:00:00+07:00", "end": "2026-01-15T09:30:00+07:00" } } },
    { "fullUrl": "Observation/51665622", "resource": { "resourceType": "Observation", "id": "51665622", "status": "final", "code": { "coding": [ { "system": "http://loinc.org", "code": "718-7", "display": "Hemoglobin [Mass/volume] in Blood" } ] }, "subject": { "reference": "Patient/51665620" }, "valueQuantity": { "value": 9.5, "unit": "g/dL", "system": "http://unitsofmeasure.org", "code": "g/dL" } } },
    { "fullUrl": "Condition/51665624", "resource": { "resourceType": "Condition", "id": "51665624", "subject": { "reference": "Patient/51665620" }, "code": { "coding": [ { "system": "http://snomed.info/sct", "code": "271737000", "display": "Anemia during pregnancy" } ] }, "clinicalStatus": { "coding": [ { "system": "http://terminology.hl7.org/CodeSystem/condition-clinical", "code": "active" } ] } } }
  ]
}